STUDYID,DOMAIN,USUBJID,SUBJID,VSPERF,VSSPID,PLUSE,PLUSEU,WEIGHT,WEIGHTU,HEIGHT,HEIGHTU,TEMP,TEMPU,VSDAT,VSTIM,VSDTC,VSTPT
RDTR-001,VS,1,1,Y,666,90,BEATS/MIN,66,kg,177,cm,37,C,2018/5/22,13:27:33,2018/5/22 13:27,2018/5/22 13:27
RDTR-001,VS,2,2,Y,777,88,BEATS/MIN,90,kg,185,cm,36.8,C,2018/5/21,19:27:45,2018/5/21 19:27,2018/5/21 19:27
