STUDYID,DOMAIN,USUBJID,SUBJID,BRTHDTC,AGE+AGEU,AGE,AGEU,DMDTC,SEX,ETHNIC,RACE,SUPPDM.QNAM,DTHDTC,DTHFL
RDTR-001,DM,1,1,1996/8/14 12:00,21 YEARS,21,YEARS,2018/5/15 10:17,F,NOT HISPANIC OR LATINO,ASIAN,Han,,N
RDTR-001,DM,2,2,1995/4/9 13:13,23 YEARS,23,YEARS,2018/5/10 11:22,M,HISPANIC,WHITE,Celts,2018/5/9 22:33,Y
Deleted Data:,,,,,,,,,,,,,,
