STUDYID,DOMAIN,USUBJID,SUBJID,MHSPID,MHCAT,MHSCAT,MHTERM,MHENRF or MHENRTPT,MHOCCUR,MHSTDTC,MHENDTC,MHDTC,MHOCCUR,MHSTDTC,MHENDTC,MHENRF,MHOCCUR,MHSTDTC,MHDY,HBP.MHDY
RDTR-001,MH,1,1,1,CARDIAC,123,CONDIITON,YES,YES,2018/5/9,2018/5/16,2018/5/17,YES,2018/5/11,2018/5/13,NO,NO,,7,2
RDTR-001,MH,2,2,2,GENERAL,122,DIAGONSIS,NO,YES,2018/5/16,2018/5/17,2018/5/18,NO,,,,YES,2018/5/12,1, 
