STUDYID,DOMAIN,USUBJID,SUBJID,SUTRT,SUCAT,SUDOSTXT or SUDOSE,SUDOSU,SUDOSFRQ,SUSTDTC,SUENDTC,SUDUR,SUDY
RDTR-001,SU,1,1,TOBACCO,TOBACCO,1-2(packs),PACKS,PER WEEK,2017/5/13,2018/5/18,4 yeas,370
RDTR-001,SU,2,2,ALCOHOL,ALCOHOL,8(ounces),OUNCES,PER DAY,2016/5/12,2018/5/18,2 years,736
