STUDYID,DOMAIN,USUBJID,SUBJID,DVDECOD,DVTERM,DVSTDTC,DVENDTC,DVSPID,DVDY
RDTR-001,DV,1,1,DETAILED DESCRIPTIVE TEXT,DETAILED DESCRIPTIVE TEXT,2018/5/15 10:17:23,2018/5/25 10:17:23,123,10
RDTR-001,DV,2,2,OTHER DESCRIPTION,SAMPLE TERM,2018/5/10 11:22:33,2018/5/19 11:22:33,233,9
Deleted Data:,,,,,,,,,
DVYN,,,,,,,,,
YES,,,,,,,,,
YES,,,,,,,,,
