STUDYID,DOMAIN,USUBJID,SUBJID,VSSPID,VSTESTCD,VSTEST,VSORRES,VSORRESU,VSSTDTC,VSTPT
RDTR-001,VS,1,1,666,PLUSE,PLUSE,90,BEATS/MIN,2018/5/22 13:27,2018/5/22 13:27
RDTR-001,VS,1,1,666,WEIGHT,WEIGHT,66,kg,2018/5/22 13:27,2018/5/22 13:27
RDTR-001,VS,1,1,666,HEIGHT,HEIGHT,177,cm,2018/5/22 13:27,2018/5/22 13:27
RDTR-001,VS,1,1,666,TEMP,TEMP,37,C,2018/5/22 13:27,2018/5/22 13:27
RDTR-001,VS,2,2,777,PLUSE,PLUSE,88,BEATS/MIN,2018/5/21 19:27,2018/5/21 19:27
RDTR-001,VS,2,2,777,WEIGHT,WEIGHT,90,kg,2018/5/21 19:27,2018/5/21 19:27
RDTR-001,VS,2,2,777,HEIGHT,HEIGHT,185,cm,2018/5/21 19:27,2018/5/21 19:27
RDTR-001,VS,2,2,777,TEMP,TEMP,36.8,C,2018/5/21 19:27,2018/5/21 19:27
Deleted Data:,,,,,,,,,,
VSPERF,,,,,,,,,,
Y,,,,,,,,,,
Y,,,,,,,,,,
Y,,,,,,,,,,
Y,,,,,,,,,,
Y,,,,,,,,,,
Y,,,,,,,,,,
Y,,,,,,,,,,
Y,,,,,,,,,,
