STUDYID,DOMAIN,USUBJID,SUBJID,DASTAT,DACAT,DASCAT,DADTC,DAREFID,DATEST,DAORRES+DAORRESU,DADTC,DAREFID,DASTAT,DAORRES+DAORRESU,DADTC,DAREFID,DASTAT,DAORRES+DAORRESU
RDTR-001,DA,1,1,YES,Study Medication,Drug A,2018/5/15,kit number,Dispensed,120g,,,,,2018/5/15,kit number,YES,120g
RDTR-001,DA,2,2,YES,Comparator,Drug B,2018/5/10,bottle label,Returned,130ml,2018/5/10,bottle label,NO,130ml,,,,
Deleted Data:



