STUDYID,DOMAIN,USUBJID,SUBJID,CMSPID,CMTRT,CMOCCUR,CMINDC,CMDOSE+CMDOSU,CMDOSTXT,CMDOSTRT,CMDOSFRM,CMDOSFRQ,CMROUTE,CMSTDTC,CMSTRF,CMENDTC,CMENRF,CMDY
RDTR-001,CM,1,1,666,Penicillin,Y,Nausea,20mg,20,20mg,TABLET,BID,ORAL,2018/5/10 16:56,N,2018/5/15 16:56,Y,5
RDTR-001,CM,2,2,2333,Amoxicillin,Y,Hypertension,30ml,30,30ml,CAPSULE,CID,TOPICAL,2018/5/12 16:56,N,2018/5/19 16:56,N,7
