STUDYID,DOMAIN,USUBJID,SUBJID,EPOCH,DSDEDCOD,DSTERM,DSSTDTC,DSSTDTC,DSDECOD,DSTERM
DS,1,1,DOUBLE BLIND,COMPLETED,COMPLETED,2018/5/14 17:56,2018/5/14 RDTR-001,COMPLETED,COMPLETED
DS,2,2,SINGLE BLIND,ADVERSE EVENT,ADVERSE EVENT,2018/5/11 19:46,2018/5/11 RDTR-001,ADVERSE EVENT,ADVERSE EVENT
DS,3,3,DOUBLE BLIND,ADVERSE EVENT,ADVERSE EVENT,2018/5/31 15:55:55,2018/6/1 RDTR-001,ADVERSE EVENT,ADVERSE EVENT
