STUDYID,DOMAIN,USUBJID,SUBJID,EGSTAT,EGREFID,EGMETHOD,EGPOS,EGTESTCD,EGTEST,EGORRES+EGORRESU,SUPPEG.QNAM,EGDTC,EGTPT
RDTR-001,EG,1,1,Y,233,12 LEAD UNSPECIFIED,SITTING,VRMEAN,VRMEAN,sample0,Y,2018/5/22 13:27,2018/5/22 13:27
RDTR-001,EG,1,1,Y,233,12 LEAD UNSPECIFIED,SITTING,PRMEAN,PRMEAN,sample1,N,2018/5/22 13:27,2018/5/22 13:27
RDTR-001,EG,1,1,Y,233,12 LEAD UNSPECIFIED,SITTING,QRSDUR,QRSDUR,sample2,Y,2018/5/22 13:27,2018/5/22 13:27
RDTR-001,EG,1,1,Y,233,12 LEAD UNSPECIFIED,SITTING,QTMEAN,QTMEAN,sample3,Y,2018/5/22 13:27,2018/5/22 13:27
RDTR-001,EG,1,1,Y,233,12 LEAD UNSPECIFIED,SITTING,QTCB,QTCB,sampel4,N,2018/5/22 13:27,2018/5/22 13:27
RDTR-001,EG,1,1,Y,233,12 LEAD UNSPECIFIED,SITTING,INTRP,INTRP,sample5,N,2018/5/22 13:27,2018/5/22 13:27
RDTR-001,EG,2,2,Y,666,12 LEAD STANDARD,SUPINE,VRMEAN,VRMEAN,sample6,N,2018/5/21 19:27,2018/5/21 19:27
RDTR-001,EG,2,2,Y,666,12 LEAD STANDARD,SUPINE,PRMEAN,PRMEAN,sample7,Y,2018/5/21 19:27,2018/5/21 19:27
RDTR-001,EG,2,2,Y,666,12 LEAD STANDARD,SUPINE,QRSDUR,QRSDUR,sample8,N,2018/5/21 19:27,2018/5/21 19:27
RDTR-001,EG,2,2,Y,666,12 LEAD STANDARD,SUPINE,QTMEAN,QTMEAN,sample9,N,2018/5/21 19:27,2018/5/21 19:27
RDTR-001,EG,2,2,Y,666,12 LEAD STANDARD,SUPINE,QTCB,QTCB,sample10,Y,2018/5/21 19:27,2018/5/21 19:27
RDTR-001,EG,2,2,Y,666,12 LEAD STANDARD,SUPINE,INTRP,INTRP,sample11,Y,2018/5/21 19:27,2018/5/21 19:27
