STUDYID,DOMAIN,USUBJID,SUBJID,PEDTC,PESPID,PETEST,PEORRES,PEORRES,PEEVAL
RDTR-001,PE,100-001,100-001,2018/5/26 9:30,123,skeletal system,NORMAL,nothing special,investigator
RDTR-001,PE,100-002,100-002,2018/5/26 11:05:00,233,endocrine system,ABNORMAL,something weird,vendor
Deleted Data:
PEPERF,PECLSIG
Y,Y
Y,Y
