STUDYID,DOMAIN,USUBJID,SUBJID,EPOCH,DSDECOD,DSTERM,DSSTDTC,DSSTDTC,DSDECODE,DSTERM
RDTR-001,DS,1,1,DOUBLE BLIND,COMPLETED,COMPLETED,2018/5/14 17:56,2018/5/14 17:56:23,COMPLETED,COMPLETED
RDTR-001,DS,2,2,SINGLE BLIND,ADVERSE EVENT,ADVERSE EVENT,2018/5/11 19:46,2018/5/11 19:46:33,ADVERSE EVENT,ADVERSE EVENT
RDTR-001,DS,3,3,DOUBLE BLIND,ADVERSE EVENT,ADVERSE EVENT,2018/5/31 15:55:55,2018/6/1 19:46:33,ADVERSE EVENT,ADVERSE EVENT
