STUDYID,DOMAIN,USUBJID,SUBJID,AESPID,AETERM,AESTDTC,AEENDTC,AEENRF,AESEV,AETOXGR,AESER,AESCONG,AESDISAB,AESDTH,AESHOSP,AESLIFE,AESMIE,AEREL,AEACN,AEACNOTH,AEOUT,AEDY
RDTR-001,AE,1,1,123,COUGH,2018/5/13 16:27,2018/5/15 16:27,YES,MILD,HYPERCALCEMIA,NO,NO,NO,NO,NO,NO,NO,NOT RELATED,DOSE NOT CHANGED,NO OTHER ACTION,RECOVERED/RESOLVED,2
RDTR-001,AE,2,2,123,FEVER,2018/5/12 16:27,2018/5/16 16:27,YES,SEVERE,HYPOCALCEMIA,YES,YES,NO,NO,YES,YES,NO,POSSIBLY,DOSE REDUCED,NO OTHER ACTION,RECOVERING/RESOLVING,4
RDTR-001,AE,3,3,233,DEWATERING,2018/5/30 16:27,2018/5/31 22:33:33,YES,SEVERE,HYPOCALCEMIA,NO,NO,NO,YES,YES,NO,YES,NOT RELATED,DOSE REDUCED,NO OTHER ACTION,RECOVERING/RESOLVING,1.2545486111111
