STUDYID,DOMAIN,USUBJID,SUBJID,CMYN,CMSPID,CMTRT,CMOCCUR,CMINGRD,CMINDC,CMAENO,CMMHNO,CMDOSE,CMDOSTXT,CMDOSTOT,CMDOSFRM,CMDOSFRQ,CMROUTE,CMSTDTC,CMSTDAT,CMSTTIM,CMPRIOR,CMENDTC,CMENDAT,CMENTIM,CMONGO
RDTR-001,CM,1,1,Y,666,Penicillin,Y,Ascorbic acid,Nausea,Sample identifier,Sample Medic History,20mg,20,20mg,TABLET,BID,ORAL,2018/5/10 16:56,2018/5/10, 16:56:37,N,2018/5/15 16:56,2018/5/15,16:56:37,Y
RDTR-001,CM,2,2,Y,2333,Amoxicillin,Y,codeine phosphate,Hypertension,Sample identifier,Sample Medic History,30ml,30,30ml,CAPSULE,CID,TOPICAL,2018/5/12 16:56,2018/5/12, 16:56:37,N,2018/5/19 16:56,2018/5/19,16:56:37,N
