STUDYID,DOMAIN,USUBJID,SUBJID,EPOCH,DSDECOD,DSTERM,DSSTDAT,DSSTTIM,DSSTDTC,DSUNBLND,DSCONT,DSNEXT,ENDOFSTUDY.DSSTDAT,ENDOFSTUDY.DSSTTIM,ENDOFSTUDY.DSDECODE,ENDOFSTUDY.DSTERM
RDTR-001,DS,1,1,DOUBLE BLIND,COMPLETED,COMPLETED,2018/5/14,17:56:23,2018/5/14 17:56,YES,NO,STUDY-1408,2018/5/14,17:56:23,COMPLETED,COMPLETED
RDTR-001,DS,2,2,SINGLE BLIND,ADVERSE EVENT,ADVERSE EVENT,2018/5/11,19:46:33,2018/5/11 19:46,YES,YES,STUDY-2333,2018/5/11,19:46:33,ADVERSE EVENT,ADVERSE EVENT
