STUDYID,DOMAIN,USUBJID,SUBJID,DVYN,DVDECOD,DVTERM,DVSTDAT,DVSTTIM,DVSTDTC,DVENDAT,DVENTIM,DVENDTC,DVSPID
RDTR-001,DV,1,1,YES,DETAILED DESCRIPTIVE TEXT,DETAILED DESCRIPTIVE TEXT,2018/5/15,10:17:23,2018/5/15 10:17:23,2018/5/25,10:17:23,2018/5/25 10:17:23,123
RDTR-001,DV,2,2,YES,OTHER DESCRIPTION,SAMPLE TERM,2018/5/10,11:22:33,2018/5/10 11:22:33,2018/5/19,11:22:33,2018/5/19 11:22:33,233
