STUDYID,DOMAIN,USUBJID,SUBJID,EXYN,EXSTDTC,EXSTDAT,EXSTTIM,EXREFID,EXENDAT,EXENTIM,EXENDTC,EXDSTXT,EXLOT,EXKIT,EXTRT,EXDOSADJ,EXADJ,EXDOSFRQ,EXROUTE,EXDOSFRM,EXINTRP,EXLOC,EXVAMT,EXFLRT,EXTPT,EXMEDCMP,EXPDOSE
RDTR-001,EX,1,1,Y,2018/5/10 16:56,2018/5/10, 16:56:37,kit number,2018/5/15,16:56:37,2018/5/15 16:56,30mg,3,2,Sample Treatment,Y,TEST REASON,QOD,INTRAMUSCULAR,SOLUTION,TEST,SHOULDER,300mg,30mg,5 minutes post dose,Y,20mg
RDTR-001,EX,2,2,Y,2018/5/12 16:56,2018/5/12, 16:56:37,bottle lable,2018/5/19,16:56:37,2018/5/19 16:56,233ml,7,6,Chemotherapy,Y,SAMPLE ,QM,ORAL,TABLET,SOLUTION,HIP,2330ml,233ml,15 minutes post dose,Y,666ml
