STUDYID,DOMAIN,USUBJID,SUBJID,MHYN,MHSPID,MHCAT,MHSCAT,MHTERM,MHONGO,MHCTRL,MHOCCUR,MHSTDAT,MHENDAT,MHDAT,HBP.MHOCCUR,HBP.MHSTDAT,HBP.MHENDAT,HBP.MHONGO,APPENDECTOMY.MHOOCUR,APPENDECTOMY.MHSTDAT
RDTR-001,MH,1,1,YES,1,CARDIAC,123,CONDIITON,YES,YES,YES,2018/5/9,2018/5/16,2018/5/17,YES,2018/5/11,2018/5/13,NO,NO,
RDTR-001,MH,2,2,YES,2,GENERAL,122,DIAGONSIS,NO,YES,YES,2018/5/16,2018/5/17,2018/5/18,NO,,,,YES,2018/5/12
