STUDYID,DOMAIN,USUBJID,SUBJID,PEPERF,PEDAT,PETIM,PEDTC,PESPID,PETEST,PERES,PEDESC,PECLSIG,PEEVAL
RDTR-001,PE,100-001,100-001,Y,,,2018/5/26 9:30,123,skeletal system,NORMAL,nothing special,Y,investigator
RDTR-001,PE,100-002,100-002,Y,2018/5/26,11:05:00,,233,endocrine system,ABNORMAL,something weird,Y,vendor
