STUDYID,DOMAIN,USUBJID,SUBJID,CMSPID,CMTRT,CMOCCUR,CMINDC,CMDOSE+CMDOSU,CMDOSTXT,CMDOSTRT,CMDOSFRM,CMDOSFRQ,CMROUTE,CMSTDTC,CMSTRF,CMENDTC,CMENRF,CMDY
RDTR-001,CM,1,1,666,Penicillin,Y,Nausea,20mg,20,20mg,TABLET,BID,ORAL,2018/5/10 16:56,N,2018/5/15 16:56,Y,5
RDTR-001,CM,2,2,2333,Amoxicillin,Y,Hypertension,30ml,30,30ml,CAPSULE,CID,TOPICAL,2018/5/12 16:56,N,2018/5/19 16:56,N,7
RDTR-001,CM,3,3,77777,ASPIRIN,Y,Nausea,4396mg,4396,4396mg,TABLET,QD,ORAL,2018/5/31 11:47:07,N,2018/6/1 17:07,Y,1.2221412037037
Deleted Data:
CMYN,CMINGRD,CMAENO,CMMHNO
Y,Ascorbic acid,Sample identifier,Sample Medic History
Y,codeine phosphate,Sample identifier,Sample Medic History
Y,codeine phosphate,Sample identifier,Sample Medic History
