STUDYID,DOMAIN,USUBJID,SUBJID,VISIT,IECAT,IETESTCD,IETEST
RDTR-001,IE,1,1,Screening,Inclusion,,
RDTR-001,IE,2,2,Screening,Ixclusion,INC_002,Subject between the age of 18 and 70 inclusive
RDTR-001,IE,3,3,Screening,Exclusion,EXC_004,Subjects with a history of diabetes
Deleted Data:
VISITNUM,IEYN
1,Y
1,N
1,N
