STUDYID,DOMAIN,USUBJID,SUBJID,DVDECOD,DVTERM,DVSTDTC,DVENDTC,DVSPID,DVDY
RDTR-001,DV,1,1,DETAILED DESCRIPTIVE TEXT,DETAILED DESCRIPTIVE TEXT,2018/5/15 10:17,2018/5/25 10:17,123,10
RDTR-001,DV,2,2,OTHER DESCRIPTION,SAMPLE TERM,2018/5/10 11:22,2018/5/19 11:22,233,9
RDTR-001,DV,3,3,DETAILED DESCRIPTIVE TEXT,DETAILED DESCRIPTIVE TEXT,2018/5/20 10:17:23,2018/5/31 17:11,777,11.287233796296
Deleted Data:
DVYN
YES
YES
YES
